picture,corrAns,trials_high.thisRepN,trials_high.thisTrialN,trials_high.thisN,trials_high.thisIndex,trials_low.thisRepN,trials_low.thisTrialN,trials_low.thisN,trials_low.thisIndex,thisRow.t,notes,Instructions.started,instructions.started,key_resp.started,Instructions.stopped,key_resp.keys,key_resp.rt,key_resp.duration,Trial.started,clock.started,fixation.started,response_high.started,text.started,clock.stopped,Trial.stopped,response_high.keys,response_high.corr,Feedback.started,key_resp_3.started,duration.started,text_4.started,Feedback.stopped,key_resp_3.keys,key_resp_3.rt,key_resp_3.duration,duration.text,Feedback_2.started,key_resp_4.started,skips.started,text_5.started,Feedback_2.stopped,key_resp_4.keys,key_resp_4.rt,key_resp_4.duration,skips.text,Feedback_3.started,key_resp_5.started,slider.started,text_3.started,Feedback_3.stopped,key_resp_5.keys,slider.response,slider.rt,Feedback_4.started,key_resp_6.started,suggestions.started,text_6.started,Feedback_4.stopped,key_resp_6.keys,key_resp_6.rt,key_resp_6.duration,suggestions.text,Instructions_2.started,instructions_2.started,key_resp_2.started,Instructions_2.stopped,key_resp_2.keys,key_resp_2.rt,key_resp_2.duration,Trial_2.started,clock_2.started,fixation_2.started,response_low.started,text_2.started,clock_2.stopped,Trial_2.stopped,response_low.keys,response_low.corr,End.started,thank_you.started,thank_you.stopped,End.stopped,participant,session,date,expName,psychopyVersion,frameRate,expStart,
,,,,,,,,,,,,0.08815680001862347,0.09616980003193021,0.09616980003193021,1.2559331000084057,space,1.153525699977763,None,,,,,,,,,,,,,,,,,,,,,,,,,,,,,,,,,,,,,,,,,,,,,,,,,,,,,,,,,,,,,,,,,1,001,2023-11-01_21h05.44.351,clock,2023.2.3,142.58399258708974,2023-11-01 21h05.52.587841 +0530,
images/01.png,None,0,0,0,0,,,,,1.469406699994579,,,,,,,,,1.2663530000136234,1.469406699994579,1.469406699994579,1.469406699994579,1.469406699994579,2.470082400017418,3.262372300028801,None,1,,,,,,,,,,,,,,,,,,,,,,,,,,,,,,,,,,,,,,,,,,,,,,,,,,,,,,,,1,001,2023-11-01_21h05.44.351,clock,2023.2.3,142.58399258708974,2023-11-01 21h05.52.587841 +0530,
images/02.png,None,0,1,1,1,,,,,3.3227185000432655,,,,,,,,,3.2629082000348717,3.3227185000432655,3.3227185000432655,3.3227185000432655,3.3227185000432655,4.324190600018483,5.25821190001443,None,1,,,,,,,,,,,,,,,,,,,,,,,,,,,,,,,,,,,,,,,,,,,,,,,,,,,,,,,,1,001,2023-11-01_21h05.44.351,clock,2023.2.3,142.58399258708974,2023-11-01 21h05.52.587841 +0530,
images/03.png,None,0,2,2,2,,,,,5.3211971000419,,,,,,,,,5.258646500005852,5.3211971000419,5.3211971000419,5.3211971000419,5.3211971000419,6.327509400027338,7.257010300003458,None,1,,,,,,,,,,,,,,,,,,,,,,,,,,,,,,,,,,,,,,,,,,,,,,,,,,,,,,,,1,001,2023-11-01_21h05.44.351,clock,2023.2.3,142.58399258708974,2023-11-01 21h05.52.587841 +0530,
images/05.png,space,0,3,3,3,,,,,7.317698800005019,,,,,,,,,7.257426400028635,7.317698800005019,7.317698800005019,7.317698800005019,7.317698800005019,8.326340200030245,9.262893600040115,None,0,,,,,,,,,,,,,,,,,,,,,,,,,,,,,,,,,,,,,,,,,,,,,,,,,,,,,,,,1,001,2023-11-01_21h05.44.351,clock,2023.2.3,142.58399258708974,2023-11-01 21h05.52.587841 +0530,
images/06.png,None,0,4,4,4,,,,,9.342086900025606,,,,,,,,,9.263711800042074,9.342086900025606,9.342086900025606,9.342086900025606,9.342086900025606,10.368896800035145,11.260505700018257,None,1,,,,,,,,,,,,,,,,,,,,,,,,,,,,,,,,,,,,,,,,,,,,,,,,,,,,,,,,1,001,2023-11-01_21h05.44.351,clock,2023.2.3,142.58399258708974,2023-11-01 21h05.52.587841 +0530,
images/08.png,space,0,5,5,5,,,,,11.320163600030355,,,,,,,,,11.260846499993932,11.320163600030355,11.320163600030355,11.320163600030355,11.320163600030355,12.34163979999721,13.262344899994787,None,0,,,,,,,,,,,,,,,,,,,,,,,,,,,,,,,,,,,,,,,,,,,,,,,,,,,,,,,,1,001,2023-11-01_21h05.44.351,clock,2023.2.3,142.58399258708974,2023-11-01 21h05.52.587841 +0530,
images/10.png,space,0,6,6,6,,,,,13.339603500033263,,,,,,,,,13.26274450001074,13.339603500033263,13.339603500033263,13.339603500033263,13.339603500033263,14.355080600013025,15.268432100012433,None,0,,,,,,,,,,,,,,,,,,,,,,,,,,,,,,,,,,,,,,,,,,,,,,,,,,,,,,,,1,001,2023-11-01_21h05.44.351,clock,2023.2.3,142.58399258708974,2023-11-01 21h05.52.587841 +0530,
images/11.png,None,0,7,7,7,,,,,15.35221179999644,,,,,,,,,15.269165400008205,15.35221179999644,15.35221179999644,15.35221179999644,15.35221179999644,16.357540700002573,17.260756300005596,None,1,,,,,,,,,,,,,,,,,,,,,,,,,,,,,,,,,,,,,,,,,,,,,,,,,,,,,,,,1,001,2023-11-01_21h05.44.351,clock,2023.2.3,142.58399258708974,2023-11-01 21h05.52.587841 +0530,
images/13.png,space,0,8,8,8,,,,,17.322899500024505,,,,,,,,,17.26116470003035,17.322899500024505,17.322899500024505,17.322899500024505,17.322899500024505,18.322686900035478,19.260261100018397,None,0,,,,,,,,,,,,,,,,,,,,,,,,,,,,,,,,,,,,,,,,,,,,,,,,,,,,,,,,1,001,2023-11-01_21h05.44.351,clock,2023.2.3,142.58399258708974,2023-11-01 21h05.52.587841 +0530,
images/14.png,None,0,9,9,9,,,,,19.32040570001118,,,,,,,,,19.26061050000135,19.32040570001118,19.32040570001118,19.32040570001118,19.32040570001118,20.3230964000104,21.260673100012355,None,1,,,,,,,,,,,,,,,,,,,,,,,,,,,,,,,,,,,,,,,,,,,,,,,,,,,,,,,,1,001,2023-11-01_21h05.44.351,clock,2023.2.3,142.58399258708974,2023-11-01 21h05.52.587841 +0530,
images/15.png,None,0,10,10,10,,,,,21.31930930004455,,,,,,,,,21.261035300034564,21.31930930004455,21.31930930004455,21.31930930004455,21.31930930004455,22.32279440003913,23.262886000040453,None,1,,,,,,,,,,,,,,,,,,,,,,,,,,,,,,,,,,,,,,,,,,,,,,,,,,,,,,,,1,001,2023-11-01_21h05.44.351,clock,2023.2.3,142.58399258708974,2023-11-01 21h05.52.587841 +0530,
images/16.png,None,0,11,11,11,,,,,23.32447829999728,,,,,,,,,23.26329450000776,23.32447829999728,23.32447829999728,23.32447829999728,23.32447829999728,24.334858300047927,25.260610299999826,None,1,,,,,,,,,,,,,,,,,,,,,,,,,,,,,,,,,,,,,,,,,,,,,,,,,,,,,,,,1,001,2023-11-01_21h05.44.351,clock,2023.2.3,142.58399258708974,2023-11-01 21h05.52.587841 +0530,
images/18.png,space,0,12,12,12,,,,,25.32106530002784,,,,,,,,,25.260946099995635,25.32106530002784,25.32106530002784,25.32106530002784,25.32106530002784,26.32308560004458,27.260638800042216,None,0,,,,,,,,,,,,,,,,,,,,,,,,,,,,,,,,,,,,,,,,,,,,,,,,,,,,,,,,1,001,2023-11-01_21h05.44.351,clock,2023.2.3,142.58399258708974,2023-11-01 21h05.52.587841 +0530,
images/20.png,space,0,13,13,13,,,,,27.322411100030877,,,,,,,,,27.261031700007152,27.322411100030877,27.322411100030877,27.322411100030877,27.322411100030877,28.331518499995582,29.260709800000768,None,0,,,,,,,,,,,,,,,,,,,,,,,,,,,,,,,,,,,,,,,,,,,,,,,,,,,,,,,,1,001,2023-11-01_21h05.44.351,clock,2023.2.3,142.58399258708974,2023-11-01 21h05.52.587841 +0530,
images/21.png,None,0,14,14,14,,,,,29.32480190001661,,,,,,,,,29.261062800011132,29.32480190001661,29.32480190001661,29.32480190001661,29.32480190001661,30.329723500006367,31.260025900031906,None,1,,,,,,,,,,,,,,,,,,,,,,,,,,,,,,,,,,,,,,,,,,,,,,,,,,,,,,,,1,001,2023-11-01_21h05.44.351,clock,2023.2.3,142.58399258708974,2023-11-01 21h05.52.587841 +0530,
images/22.png,None,0,15,15,15,,,,,31.31488130002981,,,,,,,,,31.260364400048275,31.31488130002981,31.31488130002981,31.31488130002981,31.31488130002981,32.31585770001402,33.260206200007815,None,1,,,,,,,,,,,,,,,,,,,,,,,,,,,,,,,,,,,,,,,,,,,,,,,,,,,,,,,,1,001,2023-11-01_21h05.44.351,clock,2023.2.3,142.58399258708974,2023-11-01 21h05.52.587841 +0530,
images/23.png,None,0,16,16,16,,,,,33.3308657000307,,,,,,,,,33.2605418000021,33.3308657000307,33.3308657000307,33.3308657000307,33.3308657000307,34.336231900029816,35.25993759999983,None,1,,,,,,,,,,,,,,,,,,,,,,,,,,,,,,,,,,,,,,,,,,,,,,,,,,,,,,,,1,001,2023-11-01_21h05.44.351,clock,2023.2.3,142.58399258708974,2023-11-01 21h05.52.587841 +0530,
images/24.png,None,0,17,17,17,,,,,35.3221505000256,,,,,,,,,35.26027560001239,35.3221505000256,35.3221505000256,35.3221505000256,35.3221505000256,36.32245400000829,37.26016000000527,None,1,,,,,,,,,,,,,,,,,,,,,,,,,,,,,,,,,,,,,,,,,,,,,,,,,,,,,,,,1,001,2023-11-01_21h05.44.351,clock,2023.2.3,142.58399258708974,2023-11-01 21h05.52.587841 +0530,
images/25.png,None,0,18,18,18,,,,,37.32409720000578,,,,,,,,,37.26051670004381,37.32409720000578,37.32409720000578,37.32409720000578,37.32409720000578,38.32940940000117,39.260266400000546,None,1,,,,,,,,,,,,,,,,,,,,,,,,,,,,,,,,,,,,,,,,,,,,,,,,,,,,,,,,1,001,2023-11-01_21h05.44.351,clock,2023.2.3,142.58399258708974,2023-11-01 21h05.52.587841 +0530,
images/27.png,space,0,19,19,19,,,,,39.31651160004549,,,,,,,,,39.26060150004923,39.31651160004549,39.31651160004549,39.31651160004549,39.31651160004549,40.31528120004805,41.26051069999812,None,0,,,,,,,,,,,,,,,,,,,,,,,,,,,,,,,,,,,,,,,,,,,,,,,,,,,,,,,,1,001,2023-11-01_21h05.44.351,clock,2023.2.3,142.58399258708974,2023-11-01 21h05.52.587841 +0530,
images/28.png,None,0,20,20,20,,,,,41.32389150001109,,,,,,,,,41.26085390005028,41.32389150001109,41.32389150001109,41.32389150001109,41.32389150001109,42.33793310000328,43.263001100043766,None,1,,,,,,,,,,,,,,,,,,,,,,,,,,,,,,,,,,,,,,,,,,,,,,,,,,,,,,,,1,001,2023-11-01_21h05.44.351,clock,2023.2.3,142.58399258708974,2023-11-01 21h05.52.587841 +0530,
images/29.png,None,0,21,21,21,,,,,43.32018620002782,,,,,,,,,43.263528100040276,43.32018620002782,43.32018620002782,43.32018620002782,43.32018620002782,44.33991400001105,45.2607480000006,None,1,,,,,,,,,,,,,,,,,,,,,,,,,,,,,,,,,,,,,,,,,,,,,,,,,,,,,,,,1,001,2023-11-01_21h05.44.351,clock,2023.2.3,142.58399258708974,2023-11-01 21h05.52.587841 +0530,
images/31.png,space,0,22,22,22,,,,,45.32804590003798,,,,,,,,,45.261410400038585,45.32804590003798,45.32804590003798,45.32804590003798,45.32804590003798,46.34930140001234,47.25994790002005,None,0,,,,,,,,,,,,,,,,,,,,,,,,,,,,,,,,,,,,,,,,,,,,,,,,,,,,,,,,1,001,2023-11-01_21h05.44.351,clock,2023.2.3,142.58399258708974,2023-11-01 21h05.52.587841 +0530,
images/32.png,None,0,23,23,23,,,,,47.32503020000877,,,,,,,,,47.26029290002771,47.32503020000877,47.32503020000877,47.32503020000877,47.32503020000877,48.32940490002511,49.25981860002503,None,1,,,,,,,,,,,,,,,,,,,,,,,,,,,,,,,,,,,,,,,,,,,,,,,,,,,,,,,,1,001,2023-11-01_21h05.44.351,clock,2023.2.3,142.58399258708974,2023-11-01 21h05.52.587841 +0530,
images/33.png,None,0,24,24,24,,,,,49.316706700017676,,,,,,,,,49.26016800000798,49.316706700017676,49.316706700017676,49.316706700017676,49.316706700017676,50.33337980002398,51.26030320004793,None,1,,,,,,,,,,,,,,,,,,,,,,,,,,,,,,,,,,,,,,,,,,,,,,,,,,,,,,,,1,001,2023-11-01_21h05.44.351,clock,2023.2.3,142.58399258708974,2023-11-01 21h05.52.587841 +0530,
images/34.png,None,0,25,25,25,,,,,51.322031200048514,,,,,,,,,51.26065340003697,51.322031200048514,51.322031200048514,51.322031200048514,51.322031200048514,52.32199230004335,53.25945170002524,None,1,,,,,,,,,,,,,,,,,,,,,,,,,,,,,,,,,,,,,,,,,,,,,,,,,,,,,,,,1,001,2023-11-01_21h05.44.351,clock,2023.2.3,142.58399258708974,2023-11-01 21h05.52.587841 +0530,
images/36.png,space,0,26,26,26,,,,,53.324479300004896,,,,,,,,,53.259801400010474,53.324479300004896,53.324479300004896,53.324479300004896,53.324479300004896,54.32918390003033,55.25952020002296,None,0,,,,,,,,,,,,,,,,,,,,,,,,,,,,,,,,,,,,,,,,,,,,,,,,,,,,,,,,1,001,2023-11-01_21h05.44.351,clock,2023.2.3,142.58399258708974,2023-11-01 21h05.52.587841 +0530,
images/37.png,None,0,27,27,27,,,,,55.31706590001704,,,,,,,,,55.25986170000397,55.31706590001704,55.31706590001704,55.31706590001704,55.31706590001704,56.32221120002214,57.25967420003144,None,1,,,,,,,,,,,,,,,,,,,,,,,,,,,,,,,,,,,,,,,,,,,,,,,,,,,,,,,,1,001,2023-11-01_21h05.44.351,clock,2023.2.3,142.58399258708974,2023-11-01 21h05.52.587841 +0530,
images/38.png,None,0,28,28,28,,,,,57.32428150001215,,,,,,,,,57.260004300042056,57.32428150001215,57.32428150001215,57.32428150001215,57.32428150001215,58.328695000032894,59.25944990001153,None,1,,,,,,,,,,,,,,,,,,,,,,,,,,,,,,,,,,,,,,,,,,,,,,,,,,,,,,,,1,001,2023-11-01_21h05.44.351,clock,2023.2.3,142.58399258708974,2023-11-01 21h05.52.587841 +0530,
images/40.png,space,0,29,29,29,,,,,59.31454610003857,,,,,,,,,59.25979229999939,59.31454610003857,59.31454610003857,59.31454610003857,59.31454610003857,60.31521960004466,61.25984860002063,None,0,,,,,,,,,,,,,,,,,,,,,,,,,,,,,,,,,,,,,,,,,,,,,,,,,,,,,,,,1,001,2023-11-01_21h05.44.351,clock,2023.2.3,142.58399258708974,2023-11-01 21h05.52.587841 +0530,
images/41.png,None,0,30,30,30,,,,,61.3180704000406,,,,,,,,,61.26018640003167,61.3180704000406,61.3180704000406,61.3180704000406,61.3180704000406,62.32189320004545,63.259348799998406,None,1,,,,,,,,,,,,,,,,,,,,,,,,,,,,,,,,,,,,,,,,,,,,,,,,,,,,,,,,1,001,2023-11-01_21h05.44.351,clock,2023.2.3,142.58399258708974,2023-11-01 21h05.52.587841 +0530,
images/43.png,space,0,31,31,31,,,,,63.32038799999282,,,,,,,,,63.25969850004185,63.32038799999282,63.32038799999282,63.32038799999282,63.32038799999282,64.32163990003755,65.2593447000254,None,0,,,,,,,,,,,,,,,,,,,,,,,,,,,,,,,,,,,,,,,,,,,,,,,,,,,,,,,,1,001,2023-11-01_21h05.44.351,clock,2023.2.3,142.58399258708974,2023-11-01 21h05.52.587841 +0530,
images/44.png,None,0,32,32,32,,,,,65.31526970001869,,,,,,,,,65.25967600004515,65.31526970001869,65.31526970001869,65.31526970001869,65.31526970001869,66.3150133000454,67.2572622000007,None,1,,,,,,,,,,,,,,,,,,,,,,,,,,,,,,,,,,,,,,,,,,,,,,,,,,,,,,,,1,001,2023-11-01_21h05.44.351,clock,2023.2.3,142.58399258708974,2023-11-01 21h05.52.587841 +0530,
images/46.png,space,0,33,33,33,,,,,67.32442740001716,,,,,,,,,67.25779420003528,67.32442740001716,67.32442740001716,67.32442740001716,67.32442740001716,68.32945740001742,69.2577706000302,None,0,,,,,,,,,,,,,,,,,,,,,,,,,,,,,,,,,,,,,,,,,,,,,,,,,,,,,,,,1,001,2023-11-01_21h05.44.351,clock,2023.2.3,142.58399258708974,2023-11-01 21h05.52.587841 +0530,
images/48.png,space,0,34,34,34,,,,,69.3432403000188,,,,,,,,,69.25821280002128,69.3432403000188,69.3432403000188,69.3432403000188,69.3432403000188,70.34251580003183,71.25914070004364,None,0,,,,,,,,,,,,,,,,,,,,,,,,,,,,,,,,,,,,,,,,,,,,,,,,,,,,,,,,1,001,2023-11-01_21h05.44.351,clock,2023.2.3,142.58399258708974,2023-11-01 21h05.52.587841 +0530,
images/49.png,None,0,35,35,35,,,,,71.32152540003881,,,,,,,,,71.25948400003836,71.32152540003881,71.32152540003881,71.32152540003881,71.32152540003881,72.3218351000105,73.25935910001863,None,1,,,,,,,,,,,,,,,,,,,,,,,,,,,,,,,,,,,,,,,,,,,,,,,,,,,,,,,,1,001,2023-11-01_21h05.44.351,clock,2023.2.3,142.58399258708974,2023-11-01 21h05.52.587841 +0530,
images/50.png,None,0,36,36,36,,,,,73.31979150004918,,,,,,,,,73.25969979999354,73.31979150004918,73.31979150004918,73.31979150004918,73.31979150004918,74.32155690004583,75.2591883999994,None,1,,,,,,,,,,,,,,,,,,,,,,,,,,,,,,,,,,,,,,,,,,,,,,,,,,,,,,,,1,001,2023-11-01_21h05.44.351,clock,2023.2.3,142.58399258708974,2023-11-01 21h05.52.587841 +0530,
images/51.png,None,0,37,37,37,,,,,75.32483540003886,,,,,,,,,75.25952240003971,75.32483540003886,75.32483540003886,75.32483540003886,75.32483540003886,76.32827810000163,77.2591589000076,None,1,,,,,,,,,,,,,,,,,,,,,,,,,,,,,,,,,,,,,,,,,,,,,,,,,,,,,,,,1,001,2023-11-01_21h05.44.351,clock,2023.2.3,142.58399258708974,2023-11-01 21h05.52.587841 +0530,
images/52.png,None,0,38,38,38,,,,,77.31674010003917,,,,,,,,,77.25948629999766,77.31674010003917,77.31674010003917,77.31674010003917,77.31674010003917,78.32133010000689,79.25933750002878,None,1,,,,,,,,,,,,,,,,,,,,,,,,,,,,,,,,,,,,,,,,,,,,,,,,,,,,,,,,1,001,2023-11-01_21h05.44.351,clock,2023.2.3,142.58399258708974,2023-11-01 21h05.52.587841 +0530,
images/54.png,space,0,39,39,39,,,,,79.31791090004845,,,,,,,,,79.25967450003373,79.31791090004845,79.31791090004845,79.31791090004845,79.31791090004845,80.32138050004141,81.25907910004025,None,0,,,,,,,,,,,,,,,,,,,,,,,,,,,,,,,,,,,,,,,,,,,,,,,,,,,,,,,,1,001,2023-11-01_21h05.44.351,clock,2023.2.3,142.58399258708974,2023-11-01 21h05.52.587841 +0530,
images/55.png,None,0,40,40,40,,,,,81.32096440001624,,,,,,,,,81.2594135000254,81.32096440001624,81.32096440001624,81.32096440001624,81.32096440001624,82.32132640003692,83.25928600004409,None,1,,,,,,,,,,,,,,,,,,,,,,,,,,,,,,,,,,,,,,,,,,,,,,,,,,,,,,,,1,001,2023-11-01_21h05.44.351,clock,2023.2.3,142.58399258708974,2023-11-01 21h05.52.587841 +0530,
images/57.png,space,0,41,41,41,,,,,83.32558180001797,,,,,,,,,83.25963260000572,83.32558180001797,83.32558180001797,83.32558180001797,83.32558180001797,84.32814070000313,85.25872490002075,None,0,,,,,,,,,,,,,,,,,,,,,,,,,,,,,,,,,,,,,,,,,,,,,,,,,,,,,,,,1,001,2023-11-01_21h05.44.351,clock,2023.2.3,142.58399258708974,2023-11-01 21h05.52.587841 +0530,
images/58.png,None,0,42,42,42,,,,,85.31770050001796,,,,,,,,,85.25905990001047,85.31770050001796,85.31770050001796,85.31770050001796,85.31770050001796,86.32120380003471,87.25976190000074,None,1,,,,,,,,,,,,,,,,,,,,,,,,,,,,,,,,,,,,,,,,,,,,,,,,,,,,,,,,1,001,2023-11-01_21h05.44.351,clock,2023.2.3,142.58399258708974,2023-11-01 21h05.52.587841 +0530,
images/59.png,None,0,43,43,43,,,,,87.3290078000282,,,,,,,,,87.26035650004633,87.3290078000282,87.3290078000282,87.3290078000282,87.3290078000282,88.32848910003668,89.25931809999747,None,1,,,,,,,,,,,,,,,,,,,,,,,,,,,,,,,,,,,,,,,,,,,,,,,,,,,,,,,,1,001,2023-11-01_21h05.44.351,clock,2023.2.3,142.58399258708974,2023-11-01 21h05.52.587841 +0530,
images/60.png,None,0,44,44,44,,,,,89.32052500004647,,,,,,,,,89.25990100001218,89.32052500004647,89.32052500004647,89.32052500004647,89.32052500004647,90.32145290001063,91.25918560003629,None,1,,,,,,,,,,,,,,,,,,,,,,,,,,,,,,,,,,,,,,,,,,,,,,,,,,,,,,,,1,001,2023-11-01_21h05.44.351,clock,2023.2.3,142.58399258708974,2023-11-01 21h05.52.587841 +0530,
,,,,,,,,,,,,,,,,,,,,,,,,,,,,91.25967550004134,91.26587990002008,91.26587990002008,91.26587990002008,97.48946990002878,up,6.2205010000034235,None,,,,,,,,,,,,,,,,,,,,,,,,,,,,,,,,,,,,,,,,,,,,,,,,1,001,2023-11-01_21h05.44.351,clock,2023.2.3,142.58399258708974,2023-11-01 21h05.52.587841 +0530,
,,,,,,,,,,,,,,,,,,,,,,,,,,,,,,,,,,,,"
120 seconds
",97.48949990002438,97.49657710001338,97.49657710001338,97.49657710001338,104.45450210000854,up,6.950252999959048,None,,,,,,,,,,,,,,,,,,,,,,,,,,,,,,,,,,,,,,,1,001,2023-11-01_21h05.44.351,clock,2023.2.3,142.58399258708974,2023-11-01 21h05.52.587841 +0530,
,,,,,,,,,,,,,,,,,,,,,,,,,,,,,,,,,,,,,,,,,,,,,"57 skiops
",104.45453200000338,104.46608090004884,104.46608090004884,104.46608090004884,109.24192590004532,None,,,,,,,,,,,,,,,,,,,,,,,,,,,,,,,,1,001,2023-11-01_21h05.44.351,clock,2023.2.3,142.58399258708974,2023-11-01 21h05.52.587841 +0530,
,,,,,,,,,,,,,,,,,,,,,,,,,,,,,,,,,,,,,,,,,,,,,,,,,,,,10,4.775739899952896,109.2419531000196,109.24847450002562,109.24847450002562,109.24847450002562,111.44065990002127,right,2.18432220001705,0.0011117999674752355,,,,,,,,,,,,,,,,,,,,,,1,001,2023-11-01_21h05.44.351,clock,2023.2.3,142.58399258708974,2023-11-01 21h05.52.587841 +0530,
,,,,,,,,,,,,,,,,,,,,,,,,,,,,,,,,,,,,,,,,,,,,,,,,,,,,,,,,,,,,,,,111.440693200042,111.44599510001717,111.44599510001717,112.32258080004249,space,0.8734648000099696,None,,,,,,,,,,,,,,1,001,2023-11-01_21h05.44.351,clock,2023.2.3,142.58399258708974,2023-11-01 21h05.52.587841 +0530,
images/01.png,None,,,,,0,0,0,0,112.50879940000596,,,,,,,,,,,,,,,,,,,,,,,,,,,,,,,,,,,,,,,,,,,,,,,,,,,,,,,,,,,,112.33038490003673,112.50879940000596,112.50879940000596,112.50879940000596,112.50879940000596,113.50847260002047,114.32813490001718,None,1,,,,,1,001,2023-11-01_21h05.44.351,clock,2023.2.3,142.58399258708974,2023-11-01 21h05.52.587841 +0530,
images/02.png,None,,,,,0,1,1,1,114.38484980002977,,,,,,,,,,,,,,,,,,,,,,,,,,,,,,,,,,,,,,,,,,,,,,,,,,,,,,,,,,,,114.32895670004655,114.38484980002977,114.38484980002977,114.38484980002977,114.38484980002977,115.39038210001308,116.32839320000494,None,1,,,,,1,001,2023-11-01_21h05.44.351,clock,2023.2.3,142.58399258708974,2023-11-01 21h05.52.587841 +0530,
images/04.png,space,,,,,0,2,2,2,116.3877340000472,,,,,,,,,,,,,,,,,,,,,,,,,,,,,,,,,,,,,,,,,,,,,,,,,,,,,,,,,,,,116.32904350000899,116.3877340000472,116.3877340000472,116.3877340000472,116.3877340000472,117.39051060000202,118.3279778000433,None,0,,,,,1,001,2023-11-01_21h05.44.351,clock,2023.2.3,142.58399258708974,2023-11-01 21h05.52.587841 +0530,
images/06.png,space,,,,,0,3,3,3,118.38428769999882,,,,,,,,,,,,,,,,,,,,,,,,,,,,,,,,,,,,,,,,,,,,,,,,,,,,,,,,,,,,118.3286360000493,118.38428769999882,118.38428769999882,118.38428769999882,118.38428769999882,119.39039580000099,120.32808170001954,None,0,,,,,1,001,2023-11-01_21h05.44.351,clock,2023.2.3,142.58399258708974,2023-11-01 21h05.52.587841 +0530,
images/07.png,None,,,,,0,4,4,4,120.38412180001615,,,,,,,,,,,,,,,,,,,,,,,,,,,,,,,,,,,,,,,,,,,,,,,,,,,,,,,,,,,,120.328756300034,120.38412180001615,120.38412180001615,120.38412180001615,120.38412180001615,121.383354300051,122.32810980000068,None,1,,,,,1,001,2023-11-01_21h05.44.351,clock,2023.2.3,142.58399258708974,2023-11-01 21h05.52.587841 +0530,
images/09.png,space,,,,,0,5,5,5,122.38450190000003,,,,,,,,,,,,,,,,,,,,,,,,,,,,,,,,,,,,,,,,,,,,,,,,,,,,,,,,,,,,122.32878640003037,122.38450190000003,122.38450190000003,122.38450190000003,122.38450190000003,123.39019410003675,124.32821050001075,None,0,,,,,1,001,2023-11-01_21h05.44.351,clock,2023.2.3,142.58399258708974,2023-11-01 21h05.52.587841 +0530,
images/10.png,None,,,,,0,6,6,6,124.38439530000323,,,,,,,,,,,,,,,,,,,,,,,,,,,,,,,,,,,,,,,,,,,,,,,,,,,,,,,,,,,,124.32876420003595,124.38439530000323,124.38439530000323,124.38439530000323,124.38439530000323,125.39029270003084,126.3280748000252,None,1,,,,,1,001,2023-11-01_21h05.44.351,clock,2023.2.3,142.58399258708974,2023-11-01 21h05.52.587841 +0530,
images/11.png,None,,,,,0,7,7,7,126.38534300000174,,,,,,,,,,,,,,,,,,,,,,,,,,,,,,,,,,,,,,,,,,,,,,,,,,,,,,,,,,,,126.32865320000565,126.38534300000174,126.38534300000174,126.38534300000174,126.38534300000174,127.39005490002455,128.32787269999972,None,1,,,,,1,001,2023-11-01_21h05.44.351,clock,2023.2.3,142.58399258708974,2023-11-01 21h05.52.587841 +0530,
images/12.png,None,,,,,0,8,8,8,128.38403970003128,,,,,,,,,,,,,,,,,,,,,,,,,,,,,,,,,,,,,,,,,,,,,,,,,,,,,,,,,,,,128.32856660004472,128.38403970003128,128.38403970003128,128.38403970003128,128.38403970003128,129.39575930003775,130.32722910004668,None,1,,,,,1,001,2023-11-01_21h05.44.351,clock,2023.2.3,142.58399258708974,2023-11-01 21h05.52.587841 +0530,
images/13.png,None,,,,,0,9,9,9,130.3885961000342,,,,,,,,,,,,,,,,,,,,,,,,,,,,,,,,,,,,,,,,,,,,,,,,,,,,,,,,,,,,130.3275889000506,130.3885961000342,130.3885961000342,130.3885961000342,130.3885961000342,131.38967460003914,132.32715359999565,None,1,,,,,1,001,2023-11-01_21h05.44.351,clock,2023.2.3,142.58399258708974,2023-11-01 21h05.52.587841 +0530,
images/15.png,space,,,,,0,10,10,10,132.3818938000477,,,,,,,,,,,,,,,,,,,,,,,,,,,,,,,,,,,,,,,,,,,,,,,,,,,,,,,,,,,,132.32749650004553,132.3818938000477,132.3818938000477,132.3818938000477,132.3818938000477,133.3826992000104,134.3271452000481,None,0,,,,,1,001,2023-11-01_21h05.44.351,clock,2023.2.3,142.58399258708974,2023-11-01 21h05.52.587841 +0530,
images/16.png,None,,,,,0,11,11,11,134.382021300029,,,,,,,,,,,,,,,,,,,,,,,,,,,,,,,,,,,,,,,,,,,,,,,,,,,,,,,,,,,,134.3274968000478,134.382021300029,134.382021300029,134.382021300029,134.382021300029,135.38291800004663,136.3272404000163,None,1,,,,,1,001,2023-11-01_21h05.44.351,clock,2023.2.3,142.58399258708974,2023-11-01 21h05.52.587841 +0530,
images/17.png,None,,,,,0,12,12,12,136.38233950000722,,,,,,,,,,,,,,,,,,,,,,,,,,,,,,,,,,,,,,,,,,,,,,,,,,,,,,,,,,,,136.3275971999974,136.38233950000722,136.38233950000722,136.38233950000722,136.38233950000722,137.38238960003946,138.32688220002456,None,1,,,,,1,001,2023-11-01_21h05.44.351,clock,2023.2.3,142.58399258708974,2023-11-01 21h05.52.587841 +0530,
images/19.png,space,,,,,0,13,13,13,138.38261970004532,,,,,,,,,,,,,,,,,,,,,,,,,,,,,,,,,,,,,,,,,,,,,,,,,,,,,,,,,,,,138.32723210001132,138.38261970004532,138.38261970004532,138.38261970004532,138.38261970004532,139.39382540003862,140.32703960000072,None,0,,,,,1,001,2023-11-01_21h05.44.351,clock,2023.2.3,142.58399258708974,2023-11-01 21h05.52.587841 +0530,
images/20.png,None,,,,,0,14,14,14,140.38204789999872,,,,,,,,,,,,,,,,,,,,,,,,,,,,,,,,,,,,,,,,,,,,,,,,,,,,,,,,,,,,140.32738240004983,140.38204789999872,140.38204789999872,140.38204789999872,140.38204789999872,141.3824324000161,142.32682730001397,None,1,,,,,1,001,2023-11-01_21h05.44.351,clock,2023.2.3,142.58399258708974,2023-11-01 21h05.52.587841 +0530,
images/21.png,None,,,,,0,15,15,15,142.3818759000278,,,,,,,,,,,,,,,,,,,,,,,,,,,,,,,,,,,,,,,,,,,,,,,,,,,,,,,,,,,,142.3271675000433,142.3818759000278,142.3818759000278,142.3818759000278,142.3818759000278,143.3824450999964,144.32715260004625,None,1,,,,,1,001,2023-11-01_21h05.44.351,clock,2023.2.3,142.58399258708974,2023-11-01 21h05.52.587841 +0530,
images/23.png,None,,,,,0,16,16,16,144.38410389999626,,,,,,,,,,,,,,,,,,,,,,,,,,,,,,,,,,,,,,,,,,,,,,,,,,,,,,,,,,,,144.32754720002413,144.38410389999626,144.38410389999626,144.38410389999626,144.38410389999626,145.39005640003597,146.3270223000436,None,1,,,,,1,001,2023-11-01_21h05.44.351,clock,2023.2.3,142.58399258708974,2023-11-01 21h05.52.587841 +0530,
images/25.png,space,,,,,0,17,17,17,146.38252879999345,,,,,,,,,,,,,,,,,,,,,,,,,,,,,,,,,,,,,,,,,,,,,,,,,,,,,,,,,,,,146.3273825000506,146.38252879999345,146.38252879999345,146.38252879999345,146.38252879999345,147.4008703000145,148.32711710000876,None,0,,,,,1,001,2023-11-01_21h05.44.351,clock,2023.2.3,142.58399258708974,2023-11-01 21h05.52.587841 +0530,
images/26.png,None,,,,,0,18,18,18,148.38392170000589,,,,,,,,,,,,,,,,,,,,,,,,,,,,,,,,,,,,,,,,,,,,,,,,,,,,,,,,,,,,148.327475099999,148.38392170000589,148.38392170000589,148.38392170000589,148.38392170000589,149.38926780002657,150.32680460001575,None,1,,,,,1,001,2023-11-01_21h05.44.351,clock,2023.2.3,142.58399258708974,2023-11-01 21h05.52.587841 +0530,
images/27.png,None,,,,,0,19,19,19,150.38193780003348,,,,,,,,,,,,,,,,,,,,,,,,,,,,,,,,,,,,,,,,,,,,,,,,,,,,,,,,,,,,150.3271545000025,150.38193780003348,150.38193780003348,150.38193780003348,150.38193780003348,151.38224420003826,152.3271561000147,None,1,,,,,1,001,2023-11-01_21h05.44.351,clock,2023.2.3,142.58399258708974,2023-11-01 21h05.52.587841 +0530,
images/29.png,space,,,,,0,20,20,20,152.39309730002424,,,,,,,,,,,,,,,,,,,,,,,,,,,,,,,,,,,,,,,,,,,,,,,,,,,,,,,,,,,,152.32758330000797,152.39309730002424,152.39309730002424,152.39309730002424,152.39309730002424,153.3962135000038,154.32687049999367,None,0,,,,,1,001,2023-11-01_21h05.44.351,clock,2023.2.3,142.58399258708974,2023-11-01 21h05.52.587841 +0530,
images/30.png,None,,,,,0,21,21,21,154.38633830001345,,,,,,,,,,,,,,,,,,,,,,,,,,,,,,,,,,,,,,,,,,,,,,,,,,,,,,,,,,,,154.32726829999592,154.38633830001345,154.38633830001345,154.38633830001345,154.38633830001345,155.3938839000184,156.3265628000372,None,1,,,,,1,001,2023-11-01_21h05.44.351,clock,2023.2.3,142.58399258708974,2023-11-01 21h05.52.587841 +0530,
images/32.png,space,,,,,0,22,22,22,156.38278370001353,,,,,,,,,,,,,,,,,,,,,,,,,,,,,,,,,,,,,,,,,,,,,,,,,,,,,,,,,,,,156.32690270000603,156.38278370001353,156.38278370001353,156.38278370001353,156.38278370001353,157.38204350002343,158.3268950000056,None,0,,,,,1,001,2023-11-01_21h05.44.351,clock,2023.2.3,142.58399258708974,2023-11-01 21h05.52.587841 +0530,
images/33.png,None,,,,,0,23,23,23,158.38593000004767,,,,,,,,,,,,,,,,,,,,,,,,,,,,,,,,,,,,,,,,,,,,,,,,,,,,,,,,,,,,158.32727540004998,158.38593000004767,158.38593000004767,158.38593000004767,158.38593000004767,159.3889847000246,160.3265452000196,None,1,,,,,1,001,2023-11-01_21h05.44.351,clock,2023.2.3,142.58399258708974,2023-11-01 21h05.52.587841 +0530,
images/34.png,None,,,,,0,24,24,24,160.38117180002155,,,,,,,,,,,,,,,,,,,,,,,,,,,,,,,,,,,,,,,,,,,,,,,,,,,,,,,,,,,,160.32688230002532,160.38117180002155,160.38117180002155,160.38117180002155,160.38117180002155,161.3820093999966,162.3267685000319,None,1,,,,,1,001,2023-11-01_21h05.44.351,clock,2023.2.3,142.58399258708974,2023-11-01 21h05.52.587841 +0530,
images/36.png,space,,,,,0,25,25,25,162.39323780004634,,,,,,,,,,,,,,,,,,,,,,,,,,,,,,,,,,,,,,,,,,,,,,,,,,,,,,,,,,,,162.3271219000453,162.39323780004634,162.39323780004634,162.39323780004634,162.39323780004634,163.3961483000312,164.32636790000834,None,0,,,,,1,001,2023-11-01_21h05.44.351,clock,2023.2.3,142.58399258708974,2023-11-01 21h05.52.587841 +0530,
images/37.png,None,,,,,0,26,26,26,164.38095419999445,,,,,,,,,,,,,,,,,,,,,,,,,,,,,,,,,,,,,,,,,,,,,,,,,,,,,,,,,,,,164.32670660002623,164.38095419999445,164.38095419999445,164.38095419999445,164.38095419999445,165.38194770005066,166.3263887000503,None,1,,,,,1,001,2023-11-01_21h05.44.351,clock,2023.2.3,142.58399258708974,2023-11-01 21h05.52.587841 +0530,
images/38.png,None,,,,,0,27,27,27,166.38263210002333,,,,,,,,,,,,,,,,,,,,,,,,,,,,,,,,,,,,,,,,,,,,,,,,,,,,,,,,,,,,166.32674059999408,166.38263210002333,166.38263210002333,166.38263210002333,166.38263210002333,167.38210200000321,168.32633710000664,None,1,,,,,1,001,2023-11-01_21h05.44.351,clock,2023.2.3,142.58399258708974,2023-11-01 21h05.52.587841 +0530,
images/40.png,space,,,,,0,28,28,28,168.3811828000471,,,,,,,,,,,,,,,,,,,,,,,,,,,,,,,,,,,,,,,,,,,,,,,,,,,,,,,,,,,,168.3266769000329,168.3811828000471,168.3811828000471,168.3811828000471,168.3811828000471,169.38169110001763,170.32732199999737,None,0,,,,,1,001,2023-11-01_21h05.44.351,clock,2023.2.3,142.58399258708974,2023-11-01 21h05.52.587841 +0530,
images/41.png,None,,,,,0,29,29,29,170.38569200003985,,,,,,,,,,,,,,,,,,,,,,,,,,,,,,,,,,,,,,,,,,,,,,,,,,,,,,,,,,,,170.32768340001348,170.38569200003985,170.38569200003985,170.38569200003985,170.38569200003985,171.38932740001474,172.3348518999992,None,1,,,,,1,001,2023-11-01_21h05.44.351,clock,2023.2.3,142.58399258708974,2023-11-01 21h05.52.587841 +0530,
images/42.png,None,,,,,0,30,30,30,172.415764400037,,,,,,,,,,,,,,,,,,,,,,,,,,,,,,,,,,,,,,,,,,,,,,,,,,,,,,,,,,,,172.3354330000002,172.415764400037,172.415764400037,172.415764400037,172.415764400037,173.4165537999943,174.32623020000756,None,1,,,,,1,001,2023-11-01_21h05.44.351,clock,2023.2.3,142.58399258708974,2023-11-01 21h05.52.587841 +0530,
images/44.png,space,,,,,0,31,31,31,174.38375910004834,,,,,,,,,,,,,,,,,,,,,,,,,,,,,,,,,,,,,,,,,,,,,,,,,,,,,,,,,,,,174.32657670002664,174.38375910004834,174.38375910004834,174.38375910004834,174.38375910004834,175.38853980001295,176.32640530000208,None,0,,,,,1,001,2023-11-01_21h05.44.351,clock,2023.2.3,142.58399258708974,2023-11-01 21h05.52.587841 +0530,
images/45.png,None,,,,,0,32,32,32,176.38106800004607,,,,,,,,,,,,,,,,,,,,,,,,,,,,,,,,,,,,,,,,,,,,,,,,,,,,,,,,,,,,176.32676290004747,176.38106800004607,176.38106800004607,176.38106800004607,176.38106800004607,177.39913200004958,178.3263358999975,None,1,,,,,1,001,2023-11-01_21h05.44.351,clock,2023.2.3,142.58399258708974,2023-11-01 21h05.52.587841 +0530,
images/46.png,None,,,,,0,33,33,33,178.3814221000066,,,,,,,,,,,,,,,,,,,,,,,,,,,,,,,,,,,,,,,,,,,,,,,,,,,,,,,,,,,,178.32668840000406,178.3814221000066,178.3814221000066,178.3814221000066,178.3814221000066,179.38181710004574,180.32635320001282,None,1,,,,,1,001,2023-11-01_21h05.44.351,clock,2023.2.3,142.58399258708974,2023-11-01 21h05.52.587841 +0530,
images/48.png,space,,,,,0,34,34,34,180.3819538000389,,,,,,,,,,,,,,,,,,,,,,,,,,,,,,,,,,,,,,,,,,,,,,,,,,,,,,,,,,,,180.3267108,180.3819538000389,180.3819538000389,180.3819538000389,180.3819538000389,181.38208300003316,182.32861540000886,None,0,,,,,1,001,2023-11-01_21h05.44.351,clock,2023.2.3,142.58399258708974,2023-11-01 21h05.52.587841 +0530,
images/49.png,None,,,,,0,35,35,35,182.38791190000484,,,,,,,,,,,,,,,,,,,,,,,,,,,,,,,,,,,,,,,,,,,,,,,,,,,,,,,,,,,,182.32907650002744,182.38791190000484,182.38791190000484,182.38791190000484,182.38791190000484,183.38835320004728,184.32598520000465,None,1,,,,,1,001,2023-11-01_21h05.44.351,clock,2023.2.3,142.58399258708974,2023-11-01 21h05.52.587841 +0530,
images/50.png,None,,,,,0,36,36,36,184.38166110002203,,,,,,,,,,,,,,,,,,,,,,,,,,,,,,,,,,,,,,,,,,,,,,,,,,,,,,,,,,,,184.3263398000272,184.38166110002203,184.38166110002203,184.38166110002203,184.38166110002203,185.3946469000075,186.3259372000466,None,1,,,,,1,001,2023-11-01_21h05.44.351,clock,2023.2.3,142.58399258708974,2023-11-01 21h05.52.587841 +0530,
images/51.png,None,,,,,0,37,37,37,186.3814057999989,,,,,,,,,,,,,,,,,,,,,,,,,,,,,,,,,,,,,,,,,,,,,,,,,,,,,,,,,,,,186.32627780002076,186.3814057999989,186.3814057999989,186.3814057999989,186.3814057999989,187.38190290000057,188.333100799995,None,1,,,,,1,001,2023-11-01_21h05.44.351,clock,2023.2.3,142.58399258708974,2023-11-01 21h05.52.587841 +0530,
images/52.png,None,,,,,0,38,38,38,188.39071160001913,,,,,,,,,,,,,,,,,,,,,,,,,,,,,,,,,,,,,,,,,,,,,,,,,,,,,,,,,,,,188.333505000046,188.39071160001913,188.39071160001913,188.39071160001913,188.39071160001913,189.41171780001605,190.32571760000428,None,1,,,,,1,001,2023-11-01_21h05.44.351,clock,2023.2.3,142.58399258708974,2023-11-01 21h05.52.587841 +0530,
images/54.png,space,,,,,0,39,39,39,190.38052190002054,,,,,,,,,,,,,,,,,,,,,,,,,,,,,,,,,,,,,,,,,,,,,,,,,,,,,,,,,,,,190.32606330001727,190.38052190002054,190.38052190002054,190.38052190002054,190.38052190002054,191.38180100003956,192.32599690003553,None,0,,,,,1,001,2023-11-01_21h05.44.351,clock,2023.2.3,142.58399258708974,2023-11-01 21h05.52.587841 +0530,
images/55.png,None,,,,,0,40,40,40,192.38198750000447,,,,,,,,,,,,,,,,,,,,,,,,,,,,,,,,,,,,,,,,,,,,,,,,,,,,,,,,,,,,192.32635879999725,192.38198750000447,192.38198750000447,192.38198750000447,192.38198750000447,193.3882993000443,194.32617539999774,None,1,,,,,1,001,2023-11-01_21h05.44.351,clock,2023.2.3,142.58399258708974,2023-11-01 21h05.52.587841 +0530,
images/57.png,space,,,,,0,41,41,41,194.3871110000182,,,,,,,,,,,,,,,,,,,,,,,,,,,,,,,,,,,,,,,,,,,,,,,,,,,,,,,,,,,,194.32675900001777,194.3871110000182,194.3871110000182,194.3871110000182,194.3871110000182,195.38851439999416,196.3262560000294,None,0,,,,,1,001,2023-11-01_21h05.44.351,clock,2023.2.3,142.58399258708974,2023-11-01 21h05.52.587841 +0530,
images/58.png,None,,,,,0,42,42,42,196.38280210003722,,,,,,,,,,,,,,,,,,,,,,,,,,,,,,,,,,,,,,,,,,,,,,,,,,,,,,,,,,,,196.32689440000104,196.38280210003722,196.38280210003722,196.38280210003722,196.38280210003722,197.38846380001632,198.32623100001365,None,1,,,,,1,001,2023-11-01_21h05.44.351,clock,2023.2.3,142.58399258708974,2023-11-01 21h05.52.587841 +0530,
images/59.png,None,,,,,0,43,43,43,198.3854132000124,,,,,,,,,,,,,,,,,,,,,,,,,,,,,,,,,,,,,,,,,,,,,,,,,,,,,,,,,,,,198.32705660001375,198.3854132000124,198.3854132000124,198.3854132000124,198.3854132000124,199.3885053000413,200.32600560004357,None,1,,,,,1,001,2023-11-01_21h05.44.351,clock,2023.2.3,142.58399258708974,2023-11-01 21h05.52.587841 +0530,
images/60.png,None,,,,,0,44,44,44,200.38167570001679,,,,,,,,,,,,,,,,,,,,,,,,,,,,,,,,,,,,,,,,,,,,,,,,,,,,,,,,,,,,200.32668620004551,200.38167570001679,200.38167570001679,200.38167570001679,200.38167570001679,201.38136990001658,202.32608050003182,None,1,,,,,1,001,2023-11-01_21h05.44.351,clock,2023.2.3,142.58399258708974,2023-11-01 21h05.52.587841 +0530,
,,,,,,,,,,,,,,,,,,,,,,,,,,,,202.32651490002172,202.3326985000167,202.3326985000167,202.3326985000167,207.20906530000502,up,4.8718221000162885,None,,,,,,,,,,,,,,,,,,,,,,,,,,,,,,,,,,,,,,,,,,,,,,,,1,001,2023-11-01_21h05.44.351,clock,2023.2.3,142.58399258708974,2023-11-01 21h05.52.587841 +0530,
,,,,,,,,,,,,,,,,,,,,,,,,,,,,,,,,,,,,"
2 minutes",207.20909469999606,207.21511580003425,207.21511580003425,207.21511580003425,210.93790770001942,up,3.71581129997503,None,,,,,,,,,,,,,,,,,,,,,,,,,,,,,,,,,,,,,,,1,001,2023-11-01_21h05.44.351,clock,2023.2.3,142.58399258708974,2023-11-01 21h05.52.587841 +0530,
,,,,,,,,,,,,,,,,,,,,,,,,,,,,,,,,,,,,,,,,,,,,,10,210.9379466000246,210.94841120002093,210.94841120002093,210.94841120002093,214.02461050002603,None,,,,,,,,,,,,,,,,,,,,,,,,,,,,,,,,1,001,2023-11-01_21h05.44.351,clock,2023.2.3,142.58399258708974,2023-11-01 21h05.52.587841 +0530,
,,,,,,,,,,,,,,,,,,,,,,,,,,,,,,,,,,,,,,,,,,,,,,,,,,,,4.341666666666667,3.0745274999644607,214.0246377000003,214.031356099993,214.031356099993,214.031356099993,230.13916260004044,up,16.10055110004032,None,,,,,,,,,,,,,,,,,,,,,,1,001,2023-11-01_21h05.44.351,clock,2023.2.3,142.58399258708974,2023-11-01 21h05.52.587841 +0530,
,,,,,,,,,,,,,,,,,,,,,,,,,,,,,,,,,,,,,,,,,,,,,,,,,,,,,,,,,,,,,,"Yes, But I hate the length
",,,,,,,,,,,,,,,,,230.1391952999984,230.14470340003027,233.14504080003826,233.1390305000241,,,,,,,,
